File: xrayspectroscopy/data/.txt
#FORMAT      : EMSA/MAS Spectral Data File
#VERSION     : 1.0
#TITLE       : Dime Location 1(1)
#DATE        : 15-MAR-2017
#TIME        : 15:16:20
#OWNER       :
#NPOINTS     : 2560.0
#NCOLUMNS    : 1.0
#XUNITS      : keV
#YUNITS      : Intensity
#DATATYPE    : XY
#XPERCHAN    : 0.0100
#OFFSET      : 0.0000
#CHOFFSET    :   0.0
#SIGNALTYPE  : EDS
#XLABEL      : X-Ray Energy
#YLABEL      : X-Ray Intensity
#BEAMKV   -kV:  25.0
#EMISSION -uA: 0.0000
#PROBECUR -nA: 1.2e+06
#BEAMDIAM -nm:   0.0
#MAGCAM      : 60000.0
#OPERMODE    : IMAG
#XTILTSTGE-dg: 0.000
#YTILTSTGE-dg: 0.000
#XPOSITION   : 0.000
#YPOSITION   : 20.100
#ZPOSITION   : 0.000
#ELEVANGLE-dg: 90.00
#AZIMANGLE-dg: 90.00
#SOLIDANGL-sR: 0.0222
#LIVETIME  -s: 100.0
#REALTIME  -s: 109.4
#THCWIND     : 3.00E-05
#TAUWIND  -cm: 2.00E-06
#TDEADLYR -cm: 1.00E-05
#EDSDET      : SIUTW
#COMMENT     : The following parameters are defined by Thermo Electron
##INSTRUMENT : NORAN System Six
##DETNAME    : Pioneer
##CONTAM     : 0.00E+00
##WORKDIST   :  5.00
##STAGEROT   : 0.000
##SLIDEPOS   : 0.000
##CRYSTMATL  : SiLi
##CRYSTAREA  : 10.000
##CRYSTTHICK : 3.000
##CONTMATL   : GOLD
##WINDCOAT   : ALUM
##WINDTHICK  : 0.030
##DEADTIME   : 9.381
##TIMECNSTNT :  16
##ZEROWIDTH  : 202.000
##ESCPKSREM  : 0
##ZEROPKSREM : 0
##SUMPKSREM  : 0
##ZEROCUTOFF : 0.000
##DETSUBTYPE : 2
##EXPONENT   : 0.000
##LOWEVADJ   : 0.000
##BEAMX      : -1.000
##BEAMY      : -1.000
##CHARGE     : 0.00E+00
##QUANT_DATE : Wed Mar 15 15:18:54 2017
##QUANT_CHI  : 295.902
##WDS_ANGLE  : -1.000
##FITTYPE    : 1
##MATRIXCORR : 1
##PEAKLAB    : 0.225000  C Ka  2
##PEAKLAB    : 0.928000  Cu La1  2
##PEAKLAB    : 7.458000  Ni Ka1  2
##PEAKLAB    : 8.013000  Cu Ka  2
##PEAKLAB    : 8.874000  Cu Kb1  2
##PEAKLAB    : 11.922  Br Ka1  2
##PEAKLAB    : 11.876  Br Ka2  2
##PEAKLAB    : 13.288  Br Kb1  2
##PEAKLAB    : 13.467  Br Kb2  2
##PEAKLAB    : 1.480000  Br La1  2
##PEAKLAB    : 1.526000  Br Lb1  2
##PEAKLAB    : 1.293000  Br Ll  2
##PEAKLAB    : 1.596000  Br Lb3  2
##PEAKLAB    : 1.339000  Br Ln  2
##PEAKLAB    : 0.155000  Br M3-N1  2
##PEAKLAB    : 0.161000  Br M2-N1  2
##QUANT_ATNUM: CK 6
##QUANT_LNTP : CK 1
##QUANT_SRC  : CK 1
##QUANT_NTCNT: CK 39
##QUANT_CTERR: CK 10
##QUANT_STD  : CK
##QUANT_CMPD : CK C
##QUANT_KRT  : CK 0.04327
##QUANT_KERR : CK 0.01133
##QUANT_FITC : CK 1.68569e-004
##QUANT_WTCON: CK 0.18403
##QUANT_ATCON: CK 0.53971
##QUANT_COCON: CK 0.18403
##QUANT_Z    : CK 0.79332
##QUANT_A    : CK 6.66120
##QUANT_F    : CK 0.99976
##QUANT_KFACT: CK 0.00000
##QUANT_CATS : CK 0.00000
##QUANT_FITC1: CK 0.00000e+000
##QUANT_FITC2: CK 0.00000e+000
##QUANT_FIT_G: CK 1.19443e-002
##QUANT_PMTR0: CK 8.79671e-001
##QUANT_PMTR1: CK 1.52227e+001
##QUANT_PMTR2: CK 0.00000e+000
##QUANT_PMTR3: CK 1.12072e+001
##QUANT_ATNUM: CuK 29
##QUANT_LNTP : CuK 1
##QUANT_SRC  : CuK 1
##QUANT_NTCNT: CuK 1682
##QUANT_CTERR: CuK 101
##QUANT_STD  : CuK
##QUANT_CMPD : CuK Cu
##QUANT_KRT  : CuK 0.71372
##QUANT_KERR : CuK 0.04292
##QUANT_FITC : CuK 2.25438e-003
##QUANT_WTCON: CuK 0.61508
##QUANT_ATCON: CuK 0.34096
##QUANT_COCON: CuK 0.61508
##QUANT_Z    : CuK 1.07390
##QUANT_A    : CuK 0.99749
##QUANT_F    : CuK 0.99944
##QUANT_KFACT: CuK 0.00000
##QUANT_CATS : CuK 0.00000
##QUANT_FITC1: CuK 7.84455e-004
##QUANT_FITC2: CuK 0.00000e+000
##QUANT_FIT_G: CuK 2.89737e-003
##QUANT_PMTR0: CuK 9.91294e-001
##QUANT_PMTR1: CuK 4.58253e+000
##QUANT_PMTR2: CuK 3.56712e-002
##QUANT_PMTR3: CuK 9.10328e+000
##QUANT_ATNUM: CuL 29
##QUANT_LNTP : CuL 2
##QUANT_SRC  : CuL 1
##QUANT_NTCNT: CuL 728
##QUANT_CTERR: CuL 66
##QUANT_STD  : CuL
##QUANT_CMPD : CuL
##QUANT_KRT  : CuL 0.00000
##QUANT_KERR : CuL 0.00000
##QUANT_FITC : CuL 4.26501e-003
##QUANT_WTCON: CuL -1.00000
##QUANT_ATCON: CuL 0.00000
##QUANT_COCON: CuL 0.00000
##QUANT_Z    : CuL 0.00000
##QUANT_A    : CuL 0.00000
##QUANT_F    : CuL 0.00000
##QUANT_KFACT: CuL 0.00000
##QUANT_CATS : CuL 0.00000
##QUANT_FITC1: CuL 0.00000e+000
##QUANT_FITC2: CuL 0.00000e+000
##QUANT_FIT_G: CuL 2.42892e-004
##QUANT_PMTR0: CuL 8.79671e-001
##QUANT_PMTR1: CuL 1.52227e+001
##QUANT_PMTR2: CuL 0.00000e+000
##QUANT_PMTR3: CuL 1.12072e+001
##QUANT_ATNUM: BrK 35
##QUANT_LNTP : BrK 1
##QUANT_SRC  : BrK 1
##QUANT_NTCNT: BrK 5
##QUANT_CTERR: BrK 16
##QUANT_STD  : BrK
##QUANT_CMPD : BrK Br
##QUANT_KRT  : BrK 0.00786
##QUANT_KERR : BrK 0.00786
##QUANT_FITC : BrK 4.57166e-005
##QUANT_WTCON: BrK 0.00752
##QUANT_ATCON: BrK 0.00332
##QUANT_COCON: BrK 0.00752
##QUANT_Z    : BrK 1.15694
##QUANT_A    : BrK 1.02735
##QUANT_F    : BrK 1.00000
##QUANT_KFACT: BrK 0.00000
##QUANT_CATS : BrK 0.00000
##QUANT_FITC1: BrK 0.00000e+000
##QUANT_FITC2: BrK 0.00000e+000
##QUANT_FIT_G: BrK 0.00000e+000
##QUANT_PMTR0: BrK 9.91294e-001
##QUANT_PMTR1: BrK 4.58253e+000
##QUANT_PMTR2: BrK 3.56712e-002
##QUANT_PMTR3: BrK 9.10328e+000
##QUANT_ATNUM: BrL 35
##QUANT_LNTP : BrL 2
##QUANT_SRC  : BrL 1
##QUANT_NTCNT: BrL 0
##QUANT_CTERR: BrL 7
##QUANT_STD  : BrL
##QUANT_CMPD : BrL
##QUANT_KRT  : BrL 0.00000
##QUANT_KERR : BrL 0.00000
##QUANT_FITC : BrL 0.00000e+000
##QUANT_WTCON: BrL -1.00000
##QUANT_ATCON: BrL 0.00000
##QUANT_COCON: BrL 0.00000
##QUANT_Z    : BrL 0.00000
##QUANT_A    : BrL 0.00000
##QUANT_F    : BrL 0.00000
##QUANT_KFACT: BrL 0.00000
##QUANT_CATS : BrL 0.00000
##QUANT_FITC1: BrL 0.00000e+000
##QUANT_FITC2: BrL 0.00000e+000
##QUANT_FIT_G: BrL 4.59968e-005
##QUANT_PMTR0: BrL 9.91294e-001
##QUANT_PMTR1: BrL 4.58253e+000
##QUANT_PMTR2: BrL 3.56712e-002
##QUANT_PMTR3: BrL 9.10328e+000
##QUANT_ATNUM: BrM 35
##QUANT_LNTP : BrM 3
##QUANT_SRC  : BrM 1
##QUANT_NTCNT: BrM 0
##QUANT_CTERR: BrM 0
##QUANT_STD  : BrM
##QUANT_CMPD : BrM
##QUANT_KRT  : BrM 0.00000
##QUANT_KERR : BrM 0.00000
##QUANT_FITC : BrM 0.00000e+000
##QUANT_WTCON: BrM -1.00000
##QUANT_ATCON: BrM 0.00000
##QUANT_COCON: BrM 0.00000
##QUANT_Z    : BrM 0.00000
##QUANT_A    : BrM 0.00000
##QUANT_F    : BrM 0.00000
##QUANT_KFACT: BrM 0.00000
##QUANT_CATS : BrM 0.00000
##QUANT_FITC1: BrM 0.00000e+000
##QUANT_FITC2: BrM 0.00000e+000
##QUANT_FIT_G: BrM 0.00000e+000
##QUANT_PMTR0: BrM 8.79671e-001
##QUANT_PMTR1: BrM 1.52227e+001
##QUANT_PMTR2: BrM 0.00000e+000
##QUANT_PMTR3: BrM 1.12072e+001
##QUANT_ATNUM: NiK 28
##QUANT_LNTP : NiK 1
##QUANT_SRC  : NiK 1
##QUANT_NTCNT: NiK 613
##QUANT_CTERR: NiK 73
##QUANT_STD  : NiK
##QUANT_CMPD : NiK Ni
##QUANT_KRT  : NiK 0.23515
##QUANT_KERR : NiK 0.02804
##QUANT_FITC : NiK 6.58133e-004
##QUANT_WTCON: NiK 0.19337
##QUANT_ATCON: NiK 0.11602
##QUANT_COCON: NiK 0.19337
##QUANT_Z    : NiK 1.02278
##QUANT_A    : NiK 0.99921
##QUANT_F    : NiK 0.99960
##QUANT_KFACT: NiK 0.00000
##QUANT_CATS : NiK 0.00000
##QUANT_FITC1: NiK 1.65338e-004
##QUANT_FITC2: NiK 0.00000e+000
##QUANT_FIT_G: NiK 1.11546e-003
##QUANT_PMTR0: NiK 9.91294e-001
##QUANT_PMTR1: NiK 4.58253e+000
##QUANT_PMTR2: NiK 3.56712e-002
##QUANT_PMTR3: NiK 9.10328e+000
##QUANT_ATNUM: NiL 28
##QUANT_LNTP : NiL 2
##QUANT_SRC  : NiL 1
##QUANT_NTCNT: NiL 50
##QUANT_CTERR: NiL 84
##QUANT_STD  : NiL
##QUANT_CMPD : NiL
##QUANT_KRT  : NiL 0.00000
##QUANT_KERR : NiL 0.00000
##QUANT_FITC : NiL 4.10030e-004
##QUANT_WTCON: NiL -1.00000
##QUANT_ATCON: NiL 0.00000
##QUANT_COCON: NiL 0.00000
##QUANT_Z    : NiL 0.00000
##QUANT_A    : NiL 0.00000
##QUANT_F    : NiL 0.00000
##QUANT_KFACT: NiL 0.00000
##QUANT_CATS : NiL 0.00000
##QUANT_FITC1: NiL 0.00000e+000
##QUANT_FITC2: NiL 0.00000e+000
##QUANT_FIT_G: NiL 2.02040e-003
##QUANT_PMTR0: NiL 8.79671e-001
##QUANT_PMTR1: NiL 1.52227e+001
##QUANT_PMTR2: NiL 0.00000e+000
##QUANT_PMTR3: NiL 1.12072e+001
#SPECTRUM    :
0.0000     0.0
0.0200     0.0
0.0400     0.0
0.0600     0.0
0.0800     0.0
0.1000     0.0
0.1200     0.0
0.1400     0.0
0.1600     0.0
0.1800     0.0
0.2000  3060.0
0.2200  2087.0
0.2400  1243.0
0.2600   784.0
0.2800   415.0
0.3000   210.0
0.3200   128.0
0.3400    87.0
0.3600    54.0
0.3800    66.0
0.4000    61.0
0.4200    73.0
0.4400    71.0
0.4600    64.0
0.4800    83.0
0.5000    78.0
0.5200    59.0
0.5400    72.0
0.5600    52.0
0.5800    49.0
0.6000    37.0
0.6200    45.0
0.6400    15.0
0.6600    17.0
0.6800    13.0
0.7000    12.0
0.7200    11.0
0.7400    13.0
0.7600    18.0
0.7800    21.0
0.8000    22.0
0.8200    28.0
0.8400    24.0
0.8600    25.0
0.8800    33.0
0.9000    33.0
0.9200    30.0
0.9400    27.0
0.9600    30.0
0.9800    19.0
1.0000    30.0
1.0200    13.0
1.0400     9.0
1.0600    12.0
1.0800    11.0
1.1000     5.0
1.1200     4.0
1.1400     3.0
1.1600     1.0
1.1800     0.0
1.2000     0.0
1.2200     1.0
1.2400     0.0
1.2600     1.0
1.2800     0.0
1.3000     1.0
1.3200     3.0
1.3400     0.0
1.3600     2.0
1.3800     0.0
1.4000     3.0
1.4200     1.0
1.4400     2.0
1.4600     3.0
1.4800     2.0
1.5000     2.0
1.5200     0.0
1.5400     2.0
1.5600     2.0
1.5800     2.0
1.6000     1.0
1.6200     1.0
1.6400     4.0
1.6600     0.0
1.6800     2.0
1.7000     2.0
1.7200     1.0
1.7400     1.0
1.7600     4.0
1.7800     1.0
1.8000     1.0
1.8200     1.0
1.8400     0.0
1.8600     4.0
1.8800     4.0
1.9000     1.0
1.9200     2.0
1.9400     2.0
1.9600     3.0
1.9800     1.0
2.0000     3.0
2.0200     1.0
2.0400     2.0
2.0600     2.0
2.0800     2.0
2.1000     2.0
2.1200     0.0
2.1400     2.0
2.1600     1.0
2.1800     0.0
2.2000     3.0
2.2200     2.0
2.2400     2.0
2.2600     0.0
2.2800     2.0
2.3000     3.0
2.3200     2.0
2.3400     2.0
2.3600     3.0
2.3800     4.0
2.4000     1.0
2.4200     6.0
2.4400     2.0
2.4600     2.0
2.4800     0.0
2.5000     1.0
2.5200     3.0
2.5400     2.0
2.5600     1.0
2.5800     2.0
2.6000     3.0
2.6200     2.0
2.6400     5.0
2.6600     2.0
2.6800     1.0
2.7000     5.0
2.7200     2.0
2.7400     4.0
2.7600     3.0
2.7800     6.0
2.8000     6.0
2.8200     2.0
2.8400     2.0
2.8600     0.0
2.8800     1.0
2.9000     2.0
2.9200     1.0
2.9400     6.0
2.9600     3.0
2.9800     4.0
3.0000     6.0
3.0200     2.0
3.0400     2.0
3.0600     0.0
3.0800     3.0
3.1000     1.0
3.1200     2.0
3.1400     2.0
3.1600     0.0
3.1800     0.0
3.2000     1.0
3.2200     2.0
3.2400     2.0
3.2600     4.0
3.2800     4.0
3.3000     2.0
3.3200     1.0
3.3400     2.0
3.3600     1.0
3.3800     2.0
3.4000     4.0
3.4200     2.0
3.4400     4.0
3.4600     3.0
3.4800     3.0
3.5000     1.0
3.5200     0.0
3.5400     0.0
3.5600     1.0
3.5800     2.0
3.6000     2.0
3.6200     1.0
3.6400     1.0
3.6600     4.0
3.6800     1.0
3.7000     0.0
3.7200     4.0
3.7400     1.0
3.7600     2.0
3.7800     1.0
3.8000     1.0
3.8200     0.0
3.8400     2.0
3.8600     1.0
3.8800     0.0
3.9000     1.0
3.9200     1.0
3.9400     1.0
3.9600     3.0
3.9800     5.0
4.0000     3.0
4.0200     0.0
4.0400     3.0
4.0600     3.0
4.0800     1.0
4.1000     1.0
4.1200     1.0
4.1400     1.0
4.1600     5.0
4.1800     3.0
4.2000     2.0
4.2200     2.0
4.2400     2.0
4.2600     0.0
4.2800     0.0
4.3000     3.0
4.3200     1.0
4.3400     0.0
4.3600     1.0
4.3800     1.0
4.4000     1.0
4.4200     3.0
4.4400     3.0
4.4600     3.0
4.4800     2.0
4.5000     2.0
4.5200     4.0
4.5400     1.0
4.5600     0.0
4.5800     3.0
4.6000     2.0
4.6200     0.0
4.6400     5.0
4.6600     1.0
4.6800     1.0
4.7000     2.0
4.7200     3.0
4.7400     4.0
4.7600     2.0
4.7800     2.0
4.8000     2.0
4.8200     0.0
4.8400     2.0
4.8600     3.0
4.8800     1.0
4.9000     0.0
4.9200     0.0
4.9400     0.0
4.9600     2.0
4.9800     0.0
5.0000     0.0
5.0200     2.0
5.0400     0.0
5.0600     3.0
5.0800     1.0
5.1000     1.0
5.1200     0.0
5.1400     0.0
5.1600     5.0
5.1800     2.0
5.2000     2.0
5.2200     0.0
5.2400     3.0
5.2600     1.0
5.2800     0.0
5.3000     2.0
5.3200     2.0
5.3400     1.0
5.3600     1.0
5.3800     1.0
5.4000     2.0
5.4200     0.0
5.4400     2.0
5.4600     0.0
5.4800     1.0
5.5000     3.0
5.5200     4.0
5.5400     1.0
5.5600     2.0
5.5800     2.0
5.6000     1.0
5.6200     1.0
5.6400     0.0
5.6600     0.0
5.6800     1.0
5.7000     1.0
5.7200     1.0
5.7400     2.0
5.7600     2.0
5.7800     0.0
5.8000     0.0
5.8200     5.0
5.8400     3.0
5.8600     3.0
5.8800     2.0
5.9000     2.0
5.9200     1.0
5.9400     1.0
5.9600     0.0
5.9800     0.0
6.0000     2.0
6.0200     1.0
6.0400     2.0
6.0600     3.0
6.0800     1.0
6.1000     0.0
6.1200     0.0
6.1400     3.0
6.1600     2.0
6.1800     2.0
6.2000     1.0
6.2200     2.0
6.2400     3.0
6.2600     1.0
6.2800     1.0
6.3000     1.0
6.3200     2.0
6.3400     5.0
6.3600     3.0
6.3800     2.0
6.4000     1.0
6.4200     3.0
6.4400     4.0
6.4600     2.0
6.4800     1.0
6.5000     1.0
6.5200     1.0
6.5400     1.0
6.5600     0.0
6.5800     1.0
6.6000     2.0
6.6200     1.0
6.6400     0.0
6.6600     1.0
6.6800     2.0
6.7000     1.0
6.7200     0.0
6.7400     0.0
6.7600     2.0
6.7800     1.0
6.8000     0.0
6.8200     2.0
6.8400     1.0
6.8600     0.0
6.8800     2.0
6.9000     2.0
6.9200     2.0
6.9400     1.0
6.9600     1.0
6.9800     2.0
7.0000     0.0
7.0200     2.0
7.0400     1.0
7.0600     3.0
7.0800     1.0
7.1000     3.0
7.1200     1.0
7.1400     1.0
7.1600     1.0
7.1800     1.0
7.2000     2.0
7.2200     6.0
7.2400     4.0
7.2600     4.0
7.2800     5.0
7.3000    13.0
7.3200    15.0
7.3400    19.0
7.3600    17.0
7.3800    10.0
7.4000    29.0
7.4200    15.0
7.4400    24.0
7.4600    17.0
7.4800    22.0
7.5000    18.0
7.5200    17.0
7.5400    20.0
7.5600    13.0
7.5800    10.0
7.6000     8.0
7.6200     8.0
7.6400     5.0
7.6600     4.0
7.6800     2.0
7.7000     0.0
7.7200     1.0
7.7400     1.0
7.7600     1.0
7.7800     0.0
7.8000     6.0
7.8200     5.0
7.8400    11.0
7.8600    18.0
7.8800    30.0
7.9000    35.0
7.9200    32.0
7.9400    49.0
7.9600    43.0
7.9800    61.0
8.0000    57.0
8.0200    70.0
8.0400    60.0
8.0600    53.0
8.0800    35.0
8.1000    39.0
8.1200    30.0
8.1400    31.0
8.1600    19.0
8.1800    12.0
8.2000    11.0
8.2200     6.0
8.2400     6.0
8.2600     6.0
8.2800     3.0
8.3000     2.0
8.3200     5.0
8.3400     0.0
8.3600     2.0
8.3800     2.0
8.4000     2.0
8.4200     4.0
8.4400     0.0
8.4600     1.0
8.4800     0.0
8.5000     0.0
8.5200     2.0
8.5400     2.0
8.5600     2.0
8.5800     2.0
8.6000     2.0
8.6200     0.0
8.6400     1.0
8.6600     1.0
8.6800     2.0
8.7000     2.0
8.7200     5.0
8.7400     2.0
8.7600     1.0
8.7800     5.0
8.8000     2.0
8.8200     5.0
8.8400    11.0
8.8600     8.0
8.8800     5.0
8.9000     7.0
8.9200     7.0
8.9400     4.0
8.9600     2.0
8.9800     2.0
9.0000     3.0
9.0200     3.0
9.0400     4.0
9.0600     1.0
9.0800     2.0
9.1000     0.0
9.1200     3.0
9.1400     0.0
9.1600     0.0
9.1800     1.0
9.2000     0.0
9.2200     1.0
9.2400     1.0
9.2600     1.0
9.2800     0.0
9.3000     0.0
9.3200     0.0
9.3400     0.0
9.3600     0.0
9.3800     0.0
9.4000     1.0
9.4200     0.0
9.4400     0.0
9.4600     0.0
9.4800     0.0
9.5000     1.0
9.5200     2.0
9.5400     0.0
9.5600     1.0
9.5800     0.0
9.6000     1.0
9.6200     1.0
9.6400     0.0
9.6600     0.0
9.6800     2.0
9.7000     0.0
9.7200     1.0
9.7400     0.0
9.7600     0.0
9.7800     0.0
9.8000     0.0
9.8200     0.0
9.8400     1.0
9.8600     0.0
9.8800     0.0
9.9000     2.0
9.9200     0.0
9.9400     0.0
9.9600     0.0
9.9800     0.0
10.0000     2.0
10.0200     1.0
10.0400     2.0
10.0600     0.0
10.0800     0.0
10.1000     1.0
10.1200     1.0
10.1400     1.0
10.1600     0.0
10.1800     0.0
10.2000     0.0
10.2200     0.0
10.2400     0.0
10.2600     0.0
10.2800     0.0
10.3000     0.0
10.3200     0.0
10.3400     2.0
10.3600     1.0
10.3800     1.0
10.4000     0.0
10.4200     1.0
10.4400     1.0
10.4600     0.0
10.4800     0.0
10.5000     0.0
10.5200     0.0
10.5400     0.0
10.5600     0.0
10.5800     0.0
10.6000     0.0
10.6200     0.0
10.6400     0.0
10.6600     0.0
10.6800     1.0
10.7000     0.0
10.7200     1.0
10.7400     1.0
10.7600     0.0
10.7800     0.0
10.8000     1.0
10.8200     0.0
10.8400     0.0
10.8600     1.0
10.8800     1.0
10.9000     0.0
10.9200     0.0
10.9400     0.0
10.9600     0.0
10.9800     0.0
11.0000     1.0
11.0200     0.0
11.0400     0.0
11.0600     2.0
11.0800     0.0
11.1000     0.0
11.1200     0.0
11.1400     1.0
11.1600     2.0
11.1800     0.0
11.2000     1.0
11.2200     0.0
11.2400     1.0
11.2600     1.0
11.2800     0.0
11.3000     0.0
11.3200     0.0
11.3400     0.0
11.3600     0.0
11.3800     0.0
11.4000     0.0
11.4200     0.0
11.4400     0.0
11.4600     0.0
11.4800     0.0
11.5000     0.0
11.5200     0.0
11.5400     1.0
11.5600     1.0
11.5800     1.0
11.6000     1.0
11.6200     1.0
11.6400     0.0
11.6600     1.0
11.6800     1.0
11.7000     1.0
11.7200     0.0
11.7400     0.0
11.7600     0.0
11.7800     2.0
11.8000     0.0
11.8200     0.0
11.8400     0.0
11.8600     0.0
11.8800     1.0
11.9000     1.0
11.9200     0.0
11.9400     0.0
11.9600     0.0
11.9800     2.0
12.0000     0.0
12.0200     0.0
12.0400     0.0
12.0600     0.0
12.0800     0.0
12.1000     0.0
12.1200     0.0
12.1400     0.0
12.1600     0.0
12.1800     0.0
12.2000     0.0
12.2200     0.0
12.2400     0.0
12.2600     1.0
12.2800     1.0
12.3000     1.0
12.3200     1.0
12.3400     0.0
12.3600     0.0
12.3800     0.0
12.4000     1.0
12.4200     0.0
12.4400     0.0
12.4600     0.0
12.4800     0.0
12.5000     0.0
12.5200     1.0
12.5400     0.0
12.5600     1.0
12.5800     0.0
12.6000     0.0
12.6200     0.0
12.6400     0.0
12.6600     0.0
12.6800     0.0
12.7000     0.0
12.7200     0.0
12.7400     1.0
12.7600     0.0
12.7800     0.0
12.8000     0.0
12.8200     1.0
12.8400     2.0
12.8600     0.0
12.8800     0.0
12.9000     0.0
12.9200     1.0
12.9400     0.0
12.9600     0.0
12.9800     0.0
13.0000     0.0
13.0200     0.0
13.0400     1.0
13.0600     0.0
13.0800     0.0
13.1000     0.0
13.1200     0.0
13.1400     1.0
13.1600     0.0
13.1800     0.0
13.2000     0.0
13.2200     0.0
13.2400     0.0
13.2600     0.0
13.2800     0.0
13.3000     0.0
13.3200     0.0
13.3400     0.0
13.3600     1.0
13.3800     0.0
13.4000     0.0
13.4200     0.0
13.4400     0.0
13.4600     0.0
13.4800     0.0
13.5000     1.0
13.5200     1.0
13.5400     0.0
13.5600     0.0
13.5800     0.0
13.6000     0.0
13.6200     0.0
13.6400     0.0
13.6600     1.0
13.6800     1.0
13.7000     0.0
13.7200     0.0
13.7400     0.0
13.7600     1.0
13.7800     0.0
13.8000     1.0
13.8200     0.0
13.8400     1.0
13.8600     1.0
13.8800     0.0
13.9000     1.0
13.9200     1.0
13.9400     0.0
13.9600     0.0
13.9800     0.0
14.0000     0.0
14.0200     0.0
14.0400     0.0
14.0600     0.0
14.0800     0.0
14.1000     0.0
14.1200     0.0
14.1400     0.0
14.1600     0.0
14.1800     0.0
14.2000     0.0
14.2200     1.0
14.2400     0.0
14.2600     0.0
14.2800     1.0
14.3000     0.0
14.3200     0.0
14.3400     0.0
14.3600     0.0
14.3800     0.0
14.4000     0.0
14.4200     0.0
14.4400     1.0
14.4600     0.0
14.4800     1.0
14.5000     1.0
14.5200     0.0
14.5400     0.0
14.5600     0.0
14.5800     0.0
14.6000     0.0
14.6200     0.0
14.6400     0.0
14.6600     0.0
14.6800     0.0
14.7000     0.0
14.7200     0.0
14.7400     0.0
14.7600     0.0
14.7800     1.0
14.8000     0.0
14.8200     0.0
14.8400     0.0
14.8600     0.0
14.8800     0.0
14.9000     1.0
14.9200     1.0
14.9400     0.0
14.9600     0.0
14.9800     1.0
15.0000     0.0
15.0200     1.0
15.0400     0.0
15.0600     0.0
15.0800     0.0
15.1000     2.0
15.1200     0.0
15.1400     0.0
15.1600     1.0
15.1800     0.0
15.2000     0.0
15.2200     0.0
15.2400     0.0
15.2600     0.0
15.2800     0.0
15.3000     2.0
15.3200     0.0
15.3400     0.0
15.3600     0.0
15.3800     0.0
15.4000     0.0
15.4200     0.0
15.4400     0.0
15.4600     0.0
15.4800     0.0
15.5000     0.0
15.5200     0.0
15.5400     1.0
15.5600     0.0
15.5800     0.0
15.6000     1.0
15.6200     0.0
15.6400     0.0
15.6600     0.0
15.6800     0.0
15.7000     0.0
15.7200     0.0
15.7400     0.0
15.7600     0.0
15.7800     0.0
15.8000     0.0
15.8200     0.0
15.8400     0.0
15.8600     0.0
15.8800     1.0
15.9000     1.0
15.9200     0.0
15.9400     0.0
15.9600     0.0
15.9800     0.0
16.0000     1.0
16.0200     0.0
16.0400     0.0
16.0600     0.0
16.0800     0.0
16.1000     0.0
16.1200     0.0
16.1400     0.0
16.1600     0.0
16.1800     0.0
16.2000     0.0
16.2200     0.0
16.2400     0.0
16.2600     0.0
16.2800     0.0
16.3000     0.0
16.3200     0.0
16.3400     0.0
16.3600     0.0
16.3800     0.0
16.4000     0.0
16.4200     0.0
16.4400     1.0
16.4600     0.0
16.4800     0.0
16.5000     0.0
16.5200     0.0
16.5400     2.0
16.5600     0.0
16.5800     1.0
16.6000     0.0
16.6200     0.0
16.6400     0.0
16.6600     0.0
16.6800     1.0
16.7000     1.0
16.7200     0.0
16.7400     0.0
16.7600     0.0
16.7800     0.0
16.8000     0.0
16.8200     0.0
16.8400     0.0
16.8600     0.0
16.8800     1.0
16.9000     0.0
16.9200     0.0
16.9400     0.0
16.9600     0.0
16.9800     0.0
17.0000     1.0
17.0200     0.0
17.0400     0.0
17.0600     0.0
17.0800     0.0
17.1000     0.0
17.1200     1.0
17.1400     0.0
17.1600     0.0
17.1800     0.0
17.2000     0.0
17.2200     0.0
17.2400     0.0
17.2600     0.0
17.2800     0.0
17.3000     0.0
17.3200     0.0
17.3400     0.0
17.3600     0.0
17.3800     0.0
17.4000     0.0
17.4200     1.0
17.4400     0.0
17.4600     1.0
17.4800     0.0
17.5000     0.0
17.5200     0.0
17.5400     0.0
17.5600     0.0
17.5800     0.0
17.6000     0.0
17.6200     0.0
17.6400     0.0
17.6600     0.0
17.6800     1.0
17.7000     0.0
17.7200     0.0
17.7400     0.0
17.7600     0.0
17.7800     0.0
17.8000     0.0
17.8200     0.0
17.8400     0.0
17.8600     0.0
17.8800     1.0
17.9000     0.0
17.9200     0.0
17.9400     0.0
17.9600     0.0
17.9800     0.0
18.0000     0.0
18.0200     0.0
18.0400     0.0
18.0600     1.0
18.0800     0.0
18.1000     0.0
18.1200     1.0
18.1400     1.0
18.1600     0.0
18.1800     0.0
18.2000     1.0
18.2200     0.0
18.2400     0.0
18.2600     1.0
18.2800     0.0
18.3000     0.0
18.3200     0.0
18.3400     0.0
18.3600     0.0
18.3800     0.0
18.4000     0.0
18.4200     1.0
18.4400     0.0
18.4600     0.0
18.4800     0.0
18.5000     0.0
18.5200     1.0
18.5400     0.0
18.5600     0.0
18.5800     0.0
18.6000     1.0
18.6200     0.0
18.6400     0.0
18.6600     0.0
18.6800     0.0
18.7000     0.0
18.7200     0.0
18.7400     0.0
18.7600     0.0
18.7800     0.0
18.8000     0.0
18.8200     0.0
18.8400     0.0
18.8600     0.0
18.8800     0.0
18.9000     0.0
18.9200     0.0
18.9400     0.0
18.9600     0.0
18.9800     0.0
19.0000     0.0
19.0200     0.0
19.0400     0.0
19.0600     0.0
19.0800     0.0
19.1000     0.0
19.1200     0.0
19.1400     0.0
19.1600     0.0
19.1800     0.0
19.2000     0.0
19.2200     1.0
19.2400     0.0
19.2600     0.0
19.2800     0.0
19.3000     0.0
19.3200     0.0
19.3400     0.0
19.3600     0.0
19.3800     0.0
19.4000     0.0
19.4200     0.0
19.4400     0.0
19.4600     0.0
19.4800     0.0
19.5000     1.0
19.5200     0.0
19.5400     1.0
19.5600     0.0
19.5800     0.0
19.6000     0.0
19.6200     0.0
19.6400     0.0
19.6600     0.0
19.6800     0.0
19.7000     0.0
19.7200     0.0
19.7400     0.0
19.7600     0.0
19.7800     0.0
19.8000     0.0
19.8200     0.0
19.8400     0.0
19.8600     0.0
19.8800     0.0
19.9000     0.0
19.9200     0.0
19.9400     0.0
19.9600     0.0
19.9800     0.0
20.0000     1.0
20.0200     0.0
20.0400     0.0
20.0600     0.0
20.0800     0.0
20.1000     0.0
20.1200     0.0
20.1400     0.0
20.1600     0.0
20.1800     0.0
20.2000     0.0
20.2200     0.0
20.2400     0.0
20.2600     0.0
20.2800     0.0
20.3000     0.0
20.3200     0.0
20.3400     0.0
20.3600     0.0
20.3800     0.0
20.4000     0.0
20.4200     0.0
20.4400     0.0
20.4600     0.0
20.4800     0.0
20.5000     0.0
20.5200     0.0
20.5400     0.0
20.5600     0.0
20.5800     0.0
20.6000     0.0
20.6200     0.0
20.6400     0.0
20.6600     0.0
20.6800     0.0
20.7000     0.0
20.7200     0.0
20.7400     0.0
20.7600     0.0
20.7800     0.0
20.8000     0.0
20.8200     0.0
20.8400     0.0
20.8600     0.0
20.8800     0.0
20.9000     0.0
20.9200     0.0
20.9400     0.0
20.9600     0.0
20.9800     0.0
21.0000     0.0
21.0200     0.0
21.0400     0.0
21.0600     0.0
21.0800     0.0
21.1000     0.0
21.1200     0.0
21.1400     0.0
21.1600     0.0
21.1800     0.0
21.2000     0.0
21.2200     0.0
21.2400     0.0
21.2600     0.0
21.2800     0.0
21.3000     0.0
21.3200     0.0
21.3400     0.0
21.3600     0.0
21.3800     0.0
21.4000     0.0
21.4200     0.0
21.4400     0.0
21.4600     0.0
21.4800     0.0
21.5000     0.0
21.5200     0.0
21.5400     0.0
21.5600     0.0
21.5800     0.0
21.6000     0.0
21.6200     0.0
21.6400     0.0
21.6600     0.0
21.6800     0.0
21.7000     1.0
21.7200     0.0
21.7400     0.0
21.7600     0.0
21.7800     0.0
21.8000     0.0
21.8200     0.0
21.8400     0.0
21.8600     0.0
21.8800     0.0
21.9000     0.0
21.9200     0.0
21.9400     0.0
21.9600     1.0
21.9800     0.0
22.0000     0.0
22.0200     0.0
22.0400     0.0
22.0600     0.0
22.0800     0.0
22.1000     0.0
22.1200     0.0
22.1400     0.0
22.1600     0.0
22.1800     0.0
22.2000     0.0
22.2200     1.0
22.2400     0.0
22.2600     0.0
22.2800     0.0
22.3000     0.0
22.3200     0.0
22.3400     0.0
22.3600     0.0
22.3800     0.0
22.4000     0.0
22.4200     0.0
22.4400     0.0
22.4600     0.0
22.4800     0.0
22.5000     0.0
22.5200     0.0
22.5400     0.0
22.5600     0.0
22.5800     0.0
22.6000     0.0
22.6200     0.0
22.6400     0.0
22.6600     0.0
22.6800     0.0
22.7000     0.0
22.7200     0.0
22.7400     0.0
22.7600     0.0
22.7800     0.0
22.8000     0.0
22.8200     0.0
22.8400     0.0
22.8600     0.0
22.8800     0.0
22.9000     0.0
22.9200     0.0
22.9400     0.0
22.9600     0.0
22.9800     0.0
23.0000     0.0
23.0200     0.0
23.0400     0.0
23.0600     0.0
23.0800     0.0
23.1000     0.0
23.1200     0.0
23.1400     0.0
23.1600     0.0
23.1800     0.0
23.2000     0.0
23.2200     0.0
23.2400     0.0
23.2600     0.0
23.2800     0.0
23.3000     0.0
23.3200     0.0
23.3400     0.0
23.3600     0.0
23.3800     0.0
23.4000     0.0
23.4200     0.0
23.4400     0.0
23.4600     0.0
23.4800     0.0
23.5000     0.0
23.5200     0.0
23.5400     0.0
23.5600     0.0
23.5800     0.0
23.6000     0.0
23.6200     0.0
23.6400     0.0
23.6600     0.0
23.6800     0.0
23.7000     0.0
23.7200     0.0
23.7400     0.0
23.7600     0.0
23.7800     0.0
23.8000     0.0
23.8200     0.0
23.8400     0.0
23.8600     0.0
23.8800     0.0
23.9000     0.0
23.9200     0.0
23.9400     0.0
23.9600     0.0
23.9800     0.0
24.0000     0.0
24.0200     0.0
24.0400     0.0
24.0600     0.0
24.0800     0.0
24.1000     0.0
24.1200     0.0
24.1400     0.0
24.1600     0.0
24.1800     0.0
24.2000     0.0
24.2200     0.0
24.2400     0.0
24.2600     0.0
24.2800     0.0
24.3000     0.0
24.3200     0.0
24.3400     0.0
24.3600     0.0
24.3800     0.0
24.4000     0.0
24.4200     0.0
24.4400     0.0
24.4600     0.0
24.4800     0.0
24.5000     0.0
24.5200     0.0
24.5400     0.0
24.5600     0.0
24.5800     0.0
24.6000     0.0
24.6200     0.0
24.6400     0.0
24.6600     0.0
24.6800     0.0
24.7000     0.0
24.7200     0.0
24.7400     0.0
24.7600     0.0
24.7800     0.0
24.8000     0.0
24.8200     0.0
24.8400     0.0
24.8600     0.0
24.8800     0.0
24.9000     0.0
24.9200     0.0
24.9400     0.0
24.9600     0.0
24.9800     0.0
25.0000     0.0
25.0200     0.0
25.0400     0.0
25.0600     0.0
25.0800     0.0
25.1000     0.0
25.1200     0.0
25.1400     0.0
25.1600     0.0
25.1800     0.0
25.2000     0.0
25.2200     0.0
25.2400     0.0
25.2600     0.0
25.2800     0.0
25.3000     0.0
25.3200     0.0
25.3400     0.0
25.3600     0.0
25.3800     0.0
25.4000     0.0
25.4200     0.0
25.4400     0.0
25.4600     0.0
25.4800     0.0
25.5000     0.0
25.5200     0.0
25.5400     0.0
25.5600     0.0
25.5800     0.0
25.5900     0.0
#ENDOFDATA   :
#FORMAT      : EMSA/MAS Spectral Data File
#VERSION     : 1.0
#TITLE       : Dime Location 2(2)
#DATE        : 15-MAR-2017
#TIME        : 15:32: 0
#OWNER       :
#NPOINTS     : 2560.0
#NCOLUMNS    : 1.0
#XUNITS      : keV
#YUNITS      : Intensity
#DATATYPE    : XY
#XPERCHAN    : 0.0100
#OFFSET      : 0.0000
#CHOFFSET    :   0.0
#SIGNALTYPE  : EDS
#XLABEL      : X-Ray Energy
#YLABEL      : X-Ray Intensity
#BEAMKV   -kV:  25.0
#EMISSION -uA: 0.0000
#PROBECUR -nA: 1.2e+06
#BEAMDIAM -nm:   0.0
#MAGCAM      : 40000.0
#OPERMODE    : IMAG
#XTILTSTGE-dg: 0.000
#YTILTSTGE-dg: 0.000
#XPOSITION   : 0.000
#YPOSITION   : 20.100
#ZPOSITION   : 0.000
#ELEVANGLE-dg: 90.00
#AZIMANGLE-dg: 90.00
#SOLIDANGL-sR: 0.0222
#LIVETIME  -s: 100.0
#REALTIME  -s: 104.3
#THCWIND     : 3.00E-05
#TAUWIND  -cm: 2.00E-06
#TDEADLYR -cm: 1.00E-05
#EDSDET      : SILI
#COMMENT     : The following parameters are defined by Thermo Electron
##INSTRUMENT : NORAN System Six
##DETNAME    : Pioneer
##CONTAM     : 0.00E+00
##WORKDIST   :  5.00
##STAGEROT   : 0.000
##SLIDEPOS   : 0.000
##CRYSTMATL  : SiLi
##CRYSTAREA  : 10.000
##CRYSTTHICK : 3.000
##CONTMATL   : GOLD
##WINDCOAT   : ALUM
##WINDTHICK  : 0.030
##DEADTIME   : 4.270
##TIMECNSTNT :  64
##ZEROWIDTH  : 59.000
##ESCPKSREM  : 0
##ZEROPKSREM : 0
##SUMPKSREM  : 0
##ZEROCUTOFF : 0.000
##DETSUBTYPE : 2
##EXPONENT   : 0.000
##LOWEVADJ   : 0.000
##BEAMX      : -1.000
##BEAMY      : -1.000
##CHARGE     : 0.00E+00
##QUANT_DATE : Mon Mar 20 15:22:02 2017
##QUANT_CHI  : 58.855
##WDS_ANGLE  : -1.000
##FITTYPE    : 1
##MATRIXCORR : 1
##PEAKLAB    : 0.275000  C Ka  2
##PEAKLAB    : 0.924000  Cu La1  2
##PEAKLAB    : 8.008000  Cu Ka  2
##PEAKLAB    : 8.870000  Cu Kb1  2
##PEAKLAB    : 11.922  Br Ka1  2
##PEAKLAB    : 11.876  Br Ka2  2
##PEAKLAB    : 13.288  Br Kb1  2
##PEAKLAB    : 13.467  Br Kb2  2
##PEAKLAB    : 1.480000  Br La1  2
##PEAKLAB    : 1.526000  Br Lb1  2
##PEAKLAB    : 1.293000  Br Ll  2
##PEAKLAB    : 1.596000  Br Lb3  2
##PEAKLAB    : 1.339000  Br Ln  2
##PEAKLAB    : 0.155000  Br M3-N1  2
##PEAKLAB    : 0.161000  Br M2-N1  2
##QUANT_ATNUM: CK 6
##QUANT_LNTP : CK 1
##QUANT_SRC  : CK 1
##QUANT_NTCNT: CK 70
##QUANT_CTERR: CK 13
##QUANT_STD  : CK
##QUANT_CMPD : CK C
##QUANT_KRT  : CK 0.03759
##QUANT_KERR : CK 0.00709
##QUANT_FITC : CK 3.04619e-004
##QUANT_WTCON: CK 0.16739
##QUANT_ATCON: CK 0.51584
##QUANT_COCON: CK 0.16739
##QUANT_Z    : CK 0.78269
##QUANT_A    : CK 6.95458
##QUANT_F    : CK 0.99967
##QUANT_KFACT: CK 0.00000
##QUANT_CATS : CK 0.00000
##QUANT_FITC1: CK 0.00000e+000
##QUANT_FITC2: CK 0.00000e+000
##QUANT_FIT_G: CK 1.11656e-003
##QUANT_PMTR0: CK 9.33401e-001
##QUANT_PMTR1: CK 3.40468e+000
##QUANT_PMTR2: CK 0.00000e+000
##QUANT_PMTR3: CK 5.14453e+000
##QUANT_ATNUM: CuK 29
##QUANT_LNTP : CuK 1
##QUANT_SRC  : CuK 1
##QUANT_NTCNT: CuK 4686
##QUANT_CTERR: CuK 138
##QUANT_STD  : CuK
##QUANT_CMPD : CuK Cu
##QUANT_KRT  : CuK 0.95548
##QUANT_KERR : CuK 0.02824
##QUANT_FITC : CuK 6.27891e-003
##QUANT_WTCON: CuK 0.82596
##QUANT_ATCON: CuK 0.48108
##QUANT_COCON: CuK 0.82596
##QUANT_Z    : CuK 1.05868
##QUANT_A    : CuK 0.99812
##QUANT_F    : CuK 0.99952
##QUANT_KFACT: CuK 0.00000
##QUANT_CATS : CuK 0.00000
##QUANT_FITC1: CuK 2.29421e-003
##QUANT_FITC2: CuK 5.57973e-004
##QUANT_FIT_G: CuK 1.81056e-002
##QUANT_PMTR0: CuK 9.90908e-001
##QUANT_PMTR1: CuK 4.41369e+000
##QUANT_PMTR2: CuK 3.38876e-002
##QUANT_PMTR3: CuK 2.79182e+000
##QUANT_ATNUM: CuL 29
##QUANT_LNTP : CuL 2
##QUANT_SRC  : CuL 1
##QUANT_NTCNT: CuL 1612
##QUANT_CTERR: CuL 57
##QUANT_STD  : CuL
##QUANT_CMPD : CuL
##QUANT_KRT  : CuL 0.00000
##QUANT_KERR : CuL 0.00000
##QUANT_FITC : CuL 9.44020e-003
##QUANT_WTCON: CuL -1.00000
##QUANT_ATCON: CuL 0.00000
##QUANT_COCON: CuL 0.00000
##QUANT_Z    : CuL 0.00000
##QUANT_A    : CuL 0.00000
##QUANT_F    : CuL 0.00000
##QUANT_KFACT: CuL 0.00000
##QUANT_CATS : CuL 0.00000
##QUANT_FITC1: CuL 8.32775e-004
##QUANT_FITC2: CuL 1.22241e-003
##QUANT_FIT_G: CuL 1.15779e-002
##QUANT_PMTR0: CuL 9.33401e-001
##QUANT_PMTR1: CuL 3.40468e+000
##QUANT_PMTR2: CuL 0.00000e+000
##QUANT_PMTR3: CuL 5.14453e+000
##QUANT_ATNUM: BrK 35
##QUANT_LNTP : BrK 1
##QUANT_SRC  : BrK 1
##QUANT_NTCNT: BrK 9
##QUANT_CTERR: BrK 18
##QUANT_STD  : BrK
##QUANT_CMPD : BrK Br
##QUANT_KRT  : BrK 0.00693
##QUANT_KERR : BrK 0.00693
##QUANT_FITC : BrK 8.38454e-005
##QUANT_WTCON: BrK 0.00665
##QUANT_ATCON: BrK 0.00308
##QUANT_COCON: BrK 0.00665
##QUANT_Z    : BrK 1.13953
##QUANT_A    : BrK 1.02871
##QUANT_F    : BrK 1.00000
##QUANT_KFACT: BrK 0.00000
##QUANT_CATS : BrK 0.00000
##QUANT_FITC1: BrK 0.00000e+000
##QUANT_FITC2: BrK 0.00000e+000
##QUANT_FIT_G: BrK 3.61758e-006
##QUANT_PMTR0: BrK 9.90908e-001
##QUANT_PMTR1: BrK 4.41369e+000
##QUANT_PMTR2: BrK 3.38876e-002
##QUANT_PMTR3: BrK 2.79182e+000
##QUANT_ATNUM: BrL 35
##QUANT_LNTP : BrL 2
##QUANT_SRC  : BrL 1
##QUANT_NTCNT: BrL 53
##QUANT_CTERR: BrL 15
##QUANT_STD  : BrL
##QUANT_CMPD : BrL
##QUANT_KRT  : BrL 0.00000
##QUANT_KERR : BrL 0.00000
##QUANT_FITC : BrL 3.65513e-004
##QUANT_WTCON: BrL -1.00000
##QUANT_ATCON: BrL 0.00000
##QUANT_COCON: BrL 0.00000
##QUANT_Z    : BrL 0.00000
##QUANT_A    : BrL 0.00000
##QUANT_F    : BrL 0.00000
##QUANT_KFACT: BrL 0.00000
##QUANT_CATS : BrL 0.00000
##QUANT_FITC1: BrL 0.00000e+000
##QUANT_FITC2: BrL 0.00000e+000
##QUANT_FIT_G: BrL 1.93959e-004
##QUANT_PMTR0: BrL 9.90908e-001
##QUANT_PMTR1: BrL 4.41369e+000
##QUANT_PMTR2: BrL 3.38876e-002
##QUANT_PMTR3: BrL 2.79182e+000
##QUANT_ATNUM: BrM 35
##QUANT_LNTP : BrM 3
##QUANT_SRC  : BrM 1
##QUANT_NTCNT: BrM 0
##QUANT_CTERR: BrM 6
##QUANT_STD  : BrM
##QUANT_CMPD : BrM
##QUANT_KRT  : BrM 0.00000
##QUANT_KERR : BrM 0.00000
##QUANT_FITC : BrM 0.00000e+000
##QUANT_WTCON: BrM -1.00000
##QUANT_ATCON: BrM 0.00000
##QUANT_COCON: BrM 0.00000
##QUANT_Z    : BrM 0.00000
##QUANT_A    : BrM 0.00000
##QUANT_F    : BrM 0.00000
##QUANT_KFACT: BrM 0.00000
##QUANT_CATS : BrM 0.00000
##QUANT_FITC1: BrM 0.00000e+000
##QUANT_FITC2: BrM 0.00000e+000
##QUANT_FIT_G: BrM 2.10742e-003
##QUANT_PMTR0: BrM 9.33401e-001
##QUANT_PMTR1: BrM 3.40468e+000
##QUANT_PMTR2: BrM 0.00000e+000
##QUANT_PMTR3: BrM 5.14453e+000
#SPECTRUM    :
0.0000     0.0
0.0200     0.0
0.0400     0.0
0.0600   549.0
0.0800   145.0
0.1000    26.0
0.1200     1.0
0.1400     1.0
0.1600     1.0
0.1800     4.0
0.2000     7.0
0.2200     8.0
0.2400    12.0
0.2600    16.0
0.2800    11.0
0.3000    13.0
0.3200     6.0
0.3400     7.0
0.3600     3.0
0.3800     2.0
0.4000     3.0
0.4200     7.0
0.4400     4.0
0.4600     5.0
0.4800     4.0
0.5000    11.0
0.5200     9.0
0.5400     8.0
0.5600    15.0
0.5800     8.0
0.6000     3.0
0.6200     3.0
0.6400     7.0
0.6600     9.0
0.6800    13.0
0.7000    12.0
0.7200    20.0
0.7400    24.0
0.7600    37.0
0.7800    35.0
0.8000    44.0
0.8200    67.0
0.8400   108.0
0.8600   105.0
0.8800    91.0
0.9000   119.0
0.9200   159.0
0.9400   126.0
0.9600    94.0
0.9800    54.0
1.0000    27.0
1.0200    11.0
1.0400     2.0
1.0600     4.0
1.0800     2.0
1.1000     6.0
1.1200     2.0
1.1400     3.0
1.1600     1.0
1.1800     3.0
1.2000     1.0
1.2200     6.0
1.2400     4.0
1.2600     1.0
1.2800     2.0
1.3000     3.0
1.3200     2.0
1.3400     2.0
1.3600     4.0
1.3800     4.0
1.4000     4.0
1.4200     1.0
1.4400     7.0
1.4600     7.0
1.4800     7.0
1.5000     3.0
1.5200     5.0
1.5400     5.0
1.5600     4.0
1.5800     5.0
1.6000     8.0
1.6200     3.0
1.6400     3.0
1.6600     4.0
1.6800     3.0
1.7000     5.0
1.7200     8.0
1.7400     6.0
1.7600    12.0
1.7800     9.0
1.8000     5.0
1.8200     4.0
1.8400     5.0
1.8600     6.0
1.8800     3.0
1.9000     2.0
1.9200     4.0
1.9400     2.0
1.9600    10.0
1.9800     7.0
2.0000    10.0
2.0200     2.0
2.0400     7.0
2.0600     4.0
2.0800    10.0
2.1000     7.0
2.1200     2.0
2.1400     5.0
2.1600     9.0
2.1800     6.0
2.2000     4.0
2.2200     9.0
2.2400     9.0
2.2600    11.0
2.2800     4.0
2.3000     8.0
2.3200     6.0
2.3400     4.0
2.3600    10.0
2.3800     8.0
2.4000     9.0
2.4200    11.0
2.4400     8.0
2.4600     7.0
2.4800     6.0
2.5000     4.0
2.5200    10.0
2.5400     8.0
2.5600     7.0
2.5800    11.0
2.6000    11.0
2.6200     5.0
2.6400     6.0
2.6600     7.0
2.6800     9.0
2.7000    10.0
2.7200     3.0
2.7400     6.0
2.7600     6.0
2.7800     7.0
2.8000     4.0
2.8200    11.0
2.8400     3.0
2.8600    10.0
2.8800     4.0
2.9000    11.0
2.9200     5.0
2.9400    11.0
2.9600     4.0
2.9800    10.0
3.0000     3.0
3.0200    12.0
3.0400    10.0
3.0600    13.0
3.0800     6.0
3.1000     9.0
3.1200     5.0
3.1400    11.0
3.1600     9.0
3.1800     2.0
3.2000    12.0
3.2200     8.0
3.2400    10.0
3.2600     7.0
3.2800     6.0
3.3000     3.0
3.3200     6.0
3.3400     9.0
3.3600    13.0
3.3800     4.0
3.4000     8.0
3.4200     4.0
3.4400     7.0
3.4600     7.0
3.4800     9.0
3.5000     8.0
3.5200     4.0
3.5400     9.0
3.5600     7.0
3.5800    13.0
3.6000     7.0
3.6200    12.0
3.6400     7.0
3.6600    10.0
3.6800    10.0
3.7000     9.0
3.7200     4.0
3.7400     7.0
3.7600     4.0
3.7800     9.0
3.8000     7.0
3.8200     4.0
3.8400     6.0
3.8600     6.0
3.8800     3.0
3.9000     7.0
3.9200     7.0
3.9400     8.0
3.9600     5.0
3.9800     9.0
4.0000    12.0
4.0200     9.0
4.0400    10.0
4.0600     7.0
4.0800    10.0
4.1000    10.0
4.1200     6.0
4.1400     8.0
4.1600     5.0
4.1800     7.0
4.2000     7.0
4.2200     5.0
4.2400     5.0
4.2600     7.0
4.2800    10.0
4.3000     3.0
4.3200     3.0
4.3400     5.0
4.3600     7.0
4.3800     8.0
4.4000     6.0
4.4200     9.0
4.4400     9.0
4.4600    13.0
4.4800    14.0
4.5000     5.0
4.5200    12.0
4.5400     7.0
4.5600     6.0
4.5800     5.0
4.6000     4.0
4.6200    10.0
4.6400     3.0
4.6600     6.0
4.6800     9.0
4.7000     4.0
4.7200     6.0
4.7400     7.0
4.7600     8.0
4.7800    11.0
4.8000     8.0
4.8200     4.0
4.8400     7.0
4.8600     6.0
4.8800     6.0
4.9000     7.0
4.9200     5.0
4.9400     5.0
4.9600     5.0
4.9800    10.0
5.0000    11.0
5.0200     7.0
5.0400     9.0
5.0600     3.0
5.0800     6.0
5.1000     6.0
5.1200     7.0
5.1400     6.0
5.1600     7.0
5.1800     5.0
5.2000     4.0
5.2200     9.0
5.2400     4.0
5.2600     6.0
5.2800     5.0
5.3000     5.0
5.3200     3.0
5.3400     6.0
5.3600     3.0
5.3800     3.0
5.4000     9.0
5.4200     3.0
5.4400     7.0
5.4600     5.0
5.4800     5.0
5.5000     5.0
5.5200     5.0
5.5400     7.0
5.5600     5.0
5.5800     4.0
5.6000     5.0
5.6200     6.0
5.6400     5.0
5.6600     7.0
5.6800     7.0
5.7000     5.0
5.7200     8.0
5.7400     6.0
5.7600     8.0
5.7800     8.0
5.8000     8.0
5.8200     7.0
5.8400     3.0
5.8600    11.0
5.8800    10.0
5.9000     8.0
5.9200    12.0
5.9400     4.0
5.9600     7.0
5.9800     6.0
6.0000     5.0
6.0200     6.0
6.0400     3.0
6.0600     4.0
6.0800     6.0
6.1000     5.0
6.1200     8.0
6.1400     2.0
6.1600     8.0
6.1800     4.0
6.2000     6.0
6.2200     8.0
6.2400     4.0
6.2600     6.0
6.2800     9.0
6.3000     5.0
6.3200     5.0
6.3400     6.0
6.3600     5.0
6.3800     3.0
6.4000     6.0
6.4200     2.0
6.4400     7.0
6.4600     5.0
6.4800     9.0
6.5000     2.0
6.5200     3.0
6.5400     7.0
6.5600     4.0
6.5800     4.0
6.6000     8.0
6.6200     9.0
6.6400     5.0
6.6600     2.0
6.6800     3.0
6.7000     2.0
6.7200     6.0
6.7400     7.0
6.7600     2.0
6.7800     4.0
6.8000     3.0
6.8200     2.0
6.8400     2.0
6.8600     6.0
6.8800     2.0
6.9000     4.0
6.9200     3.0
6.9400     4.0
6.9600     7.0
6.9800     1.0
7.0000     1.0
7.0200     5.0
7.0400     3.0
7.0600     2.0
7.0800     4.0
7.1000     4.0
7.1200     4.0
7.1400     3.0
7.1600     3.0
7.1800     6.0
7.2000     5.0
7.2200     3.0
7.2400     8.0
7.2600     7.0
7.2800     8.0
7.3000    16.0
7.3200    16.0
7.3400    45.0
7.3600    52.0
7.3800    74.0
7.4000    91.0
7.4200   109.0
7.4400   108.0
7.4600   118.0
7.4800    79.0
7.5000    94.0
7.5200    43.0
7.5400    37.0
7.5600    22.0
7.5800     9.0
7.6000    12.0
7.6200     4.0
7.6400     7.0
7.6600     5.0
7.6800     6.0
7.7000     7.0
7.7200     5.0
7.7400     1.0
7.7600     6.0
7.7800     6.0
7.8000     6.0
7.8200    13.0
7.8400    18.0
7.8600    32.0
7.8800    55.0
7.9000    94.0
7.9200   123.0
7.9400   178.0
7.9600   229.0
7.9800   238.0
8.0000   256.0
8.0200   248.0
8.0400   223.0
8.0600   206.0
8.0800   148.0
8.1000   107.0
8.1200    68.0
8.1400    39.0
8.1600    27.0
8.1800    25.0
8.2000    17.0
8.2200    15.0
8.2400    14.0
8.2600    16.0
8.2800    16.0
8.3000    12.0
8.3200     6.0
8.3400    10.0
8.3600     4.0
8.3800     4.0
8.4000     3.0
8.4200     1.0
8.4400     1.0
8.4600     0.0
8.4800     0.0
[...]
0.0200     0.0
0.0400     0.0
0.0600   484.0
0.0800   150.0
0.1000    15.0
0.1200     4.0
0.1400     0.0
0.1600     1.0
0.1800     0.0
0.2000     0.0
0.2200     2.0
0.2400     2.0
0.2600     6.0
0.2800     1.0
0.3000     1.0
0.3200     3.0
0.3400     1.0
0.3600     2.0
0.3800     1.0
0.4000     1.0
0.4200     2.0
0.4400     0.0
0.4600     3.0
0.4800     6.0
0.5000    19.0
0.5200    17.0
0.5400    10.0
0.5600     7.0
0.5800     2.0
0.6000     7.0
0.6200     0.0
0.6400     2.0
0.6600     3.0
0.6800     3.0
0.7000     2.0
0.7200     3.0
0.7400     1.0
0.7600     1.0
0.7800     1.0
0.8000     2.0
0.8200     1.0
0.8400     1.0
0.8600     2.0
0.8800     2.0
0.9000     2.0
0.9200     0.0
0.9400     3.0
0.9600     3.0
0.9800     4.0
1.0000     8.0
1.0200     8.0
1.0400     8.0
1.0600     5.0
1.0800     3.0
1.1000     1.0
1.1200     0.0
1.1400     0.0
1.1600     0.0
1.1800     1.0
1.2000     2.0
1.2200     3.0
1.2400     6.0
1.2600     3.0
1.2800     5.0
1.3000     0.0
1.3200     0.0
1.3400     3.0
1.3600     2.0
1.3800     0.0
1.4000     2.0
1.4200     4.0
1.4400     5.0
1.4600     2.0
1.4800     5.0
1.5000     5.0
1.5200     1.0
1.5400     3.0
1.5600     1.0
1.5800     3.0
1.6000     3.0
1.6200     1.0
1.6400     1.0
1.6600     1.0
1.6800     3.0
1.7000     5.0
1.7200     4.0
1.7400     6.0
1.7600    11.0
1.7800     2.0
1.8000     1.0
1.8200     2.0
1.8400     4.0
1.8600     3.0
1.8800     2.0
1.9000     3.0
1.9200     2.0
1.9400     3.0
1.9600     2.0
1.9800     1.0
2.0000     2.0
2.0200     4.0
2.0400     2.0
2.0600     0.0
2.0800     5.0
2.1000     7.0
2.1200    10.0
2.1400     5.0
2.1600     4.0
2.1800     3.0
2.2000     7.0
2.2200     3.0
2.2400     4.0
2.2600     1.0
2.2800     2.0
2.3000     5.0
2.3200     1.0
2.3400     2.0
2.3600     2.0
2.3800     1.0
2.4000     2.0
2.4200     3.0
2.4400     2.0
2.4600     0.0
2.4800     3.0
2.5000     1.0
2.5200     2.0
2.5400     2.0
2.5600     5.0
2.5800     2.0
2.6000     1.0
2.6200     6.0
2.6400     3.0
2.6600     4.0
2.6800     2.0
2.7000     2.0
2.7200     3.0
2.7400     1.0
2.7600     1.0
2.7800     1.0
2.8000     0.0
2.8200     0.0
2.8400     2.0
2.8600     2.0
2.8800     3.0
2.9000     2.0
2.9200     1.0
2.9400     1.0
2.9600     0.0
2.9800     1.0
3.0000     1.0
3.0200     2.0
3.0400     3.0
3.0600     0.0
3.0800     1.0
3.1000     2.0
3.1200     2.0
3.1400     1.0
3.1600     2.0
3.1800     1.0
3.2000     2.0
3.2200     3.0
3.2400     0.0
3.2600     1.0
3.2800     2.0
3.3000     2.0
3.3200     1.0
3.3400     3.0
3.3600     1.0
3.3800     1.0
3.4000     1.0
3.4200     1.0
3.4400     5.0
3.4600     0.0
3.4800     3.0
3.5000     4.0
3.5200     4.0
3.5400     3.0
3.5600     0.0
3.5800     3.0
3.6000     3.0
3.6200     5.0
3.6400     9.0
3.6600    11.0
3.6800    13.0
3.7000    12.0
3.7200    14.0
3.7400     5.0
3.7600     6.0
3.7800     4.0
3.8000     4.0
3.8200     4.0
3.8400     1.0
3.8600     2.0
3.8800     2.0
3.9000     2.0
3.9200     2.0
3.9400     0.0
3.9600     1.0
3.9800     5.0
4.0000     3.0
4.0200     3.0
4.0400     1.0
4.0600     3.0
4.0800     2.0
4.1000     2.0
4.1200     3.0
4.1400     3.0
4.1600     1.0
4.1800     0.0
4.2000     4.0
4.2200     3.0
4.2400     0.0
4.2600     0.0
4.2800     1.0
4.3000     2.0
4.3200     2.0
4.3400     0.0
4.3600     2.0
4.3800     3.0
4.4000     1.0
4.4200     3.0
4.4400     2.0
4.4600     0.0
4.4800     0.0
4.5000     1.0
4.5200     3.0
4.5400     2.0
4.5600     3.0
4.5800     2.0
4.6000     1.0
4.6200     0.0
4.6400     3.0
4.6600     1.0
4.6800     4.0
4.7000     2.0
4.7200     2.0
4.7400     1.0
4.7600     2.0
4.7800     1.0
4.8000     0.0
4.8200     0.0
4.8400     1.0
4.8600     0.0
4.8800     1.0
4.9000     0.0
4.9200     1.0
4.9400     3.0
4.9600     3.0
4.9800     2.0
5.0000     1.0
5.0200     1.0
5.0400     0.0
5.0600     1.0
5.0800     2.0
5.1000     1.0
5.1200     0.0
5.1400     0.0
5.1600     2.0
5.1800     0.0
5.2000     2.0
5.2200     2.0
5.2400     2.0
5.2600     0.0
5.2800     1.0
5.3000     0.0
5.3200     2.0
5.3400     0.0
5.3600     2.0
5.3800     3.0
5.4000     2.0
5.4200     0.0
5.4400     0.0
5.4600     0.0
5.4800     2.0
5.5000     1.0
5.5200     1.0
5.5400     0.0
5.5600     3.0
5.5800     3.0
5.6000     2.0
5.6200     1.0
5.6400     1.0
5.6600     1.0
5.6800     2.0
5.7000     7.0
5.7200     1.0
5.7400     2.0
5.7600     2.0
5.7800     4.0
5.8000     9.0
5.8200     6.0
5.8400    11.0
5.8600     7.0
5.8800    12.0
5.9000    19.0
5.9200    15.0
5.9400     6.0
5.9600    12.0
5.9800     2.0
6.0000     1.0
6.0200     0.0
6.0400     2.0
6.0600     2.0
6.0800     2.0
6.1000     3.0
6.1200     2.0
6.1400     2.0
6.1600     1.0
6.1800     1.0
6.2000     3.0
6.2200     9.0
6.2400    14.0
6.2600    21.0
6.2800    28.0
6.3000    34.0
6.3200    47.0
6.3400    77.0
6.3600    71.0
6.3800    71.0
6.4000    86.0
6.4200    51.0
6.4400    46.0
6.4600    24.0
6.4800    25.0
6.5000    14.0
6.5200     6.0
6.5400     2.0
6.5600     6.0
6.5800     1.0
6.6000     1.0
6.6200     1.0
6.6400     2.0
6.6600     2.0
6.6800     1.0
6.7000     0.0
6.7200     0.0
6.7400     0.0
6.7600     2.0
6.7800     1.0
6.8000     2.0
6.8200     1.0
6.8400     1.0
6.8600     1.0
6.8800     2.0
6.9000     3.0
6.9200     4.0
6.9400    10.0
6.9600     5.0
6.9800     6.0
7.0000    10.0
7.0200    15.0
7.0400    12.0
7.0600     9.0
7.0800    12.0
7.1000     3.0
7.1200     4.0
7.1400     6.0
7.1600     5.0
7.1800     0.0
7.2000     1.0
7.2200     1.0
7.2400     0.0
7.2600     2.0
7.2800     0.0
7.3000     0.0
7.3200     1.0
7.3400     4.0
7.3600     7.0
7.3800     6.0
7.4000     7.0
7.4200     6.0
7.4400     6.0
7.4600     8.0
7.4800     4.0
7.5000     6.0
7.5200     5.0
7.5400     4.0
7.5600     5.0
7.5800     0.0
7.6000     2.0
7.6200     0.0
7.6400     1.0
7.6600     1.0
7.6800     1.0
7.7000     0.0
7.7200     0.0
7.7400     0.0
7.7600     1.0
7.7800     0.0
7.8000     0.0
7.8200     1.0
7.8400     6.0
7.8600     1.0
7.8800     3.0
7.9000    15.0
7.9200     9.0
7.9400    20.0
7.9600    24.0
7.9800    32.0
8.0000    29.0
8.0200    36.0
8.0400    24.0
8.0600    25.0
8.0800     9.0
8.1000     5.0
8.1200     4.0
8.1400    10.0
8.1600     2.0
8.1800     1.0
8.2000     0.0
8.2200     0.0
8.2400     1.0
8.2600     1.0
8.2800     3.0
8.3000     1.0
8.3200     2.0
8.3400     0.0
8.3600     1.0
8.3800     4.0
8.4000     0.0
8.4200     1.0
8.4400     0.0
8.4600     2.0
8.4800     4.0
8.5000     9.0
8.5200     9.0
8.5400    22.0
8.5600    26.0
8.5800    20.0
8.6000    14.0
8.6200    15.0
8.6400    16.0
8.6600    13.0
8.6800     5.0
8.7000     9.0
8.7200     1.0
8.7400     2.0
8.7600     2.0
8.7800     2.0
8.8000     4.0
8.8200     2.0
8.8400     3.0
8.8600     3.0
8.8800     2.0
8.9000     6.0
8.9200     3.0
8.9400     3.0
8.9600     3.0
8.9800     2.0
9.0000     0.0
9.0200     0.0
9.0400     2.0
9.0600     2.0
9.0800     0.0
9.1000     0.0
9.1200     1.0
9.1400     1.0
9.1600     1.0
9.1800     0.0
9.2000     0.0
9.2200     1.0
9.2400     0.0
9.2600     0.0
9.2800     0.0
9.3000     1.0
9.3200     2.0
9.3400     0.0
9.3600     0.0
9.3800     0.0
9.4000     2.0
9.4200     3.0
9.4400     2.0
9.4600     3.0
9.4800     4.0
9.5000     5.0
9.5200     8.0
9.5400     2.0
9.5600     4.0
9.5800     0.0
9.6000     1.0
9.6200     4.0
9.6400     1.0
9.6600     2.0
9.6800     1.0
9.7000     0.0
9.7200     1.0
9.7400     1.0
9.7600     1.0
9.7800     1.0
9.8000     1.0
9.8200     0.0
9.8400     0.0
9.8600     0.0
9.8800     1.0
9.9000     1.0
9.9200     0.0
9.9400     2.0
9.9600     1.0
9.9800     0.0
10.0000     0.0
10.0200     0.0
10.0400     0.0
10.0600     0.0
10.0800     0.0
10.1000     1.0
10.1200     0.0
10.1400     1.0
10.1600     0.0
10.1800     1.0
10.2000     0.0
10.2200     0.0
10.2400     0.0
10.2600     0.0
10.2800     0.0
10.3000     1.0
10.3200     1.0
10.3400     0.0
10.3600     0.0
10.3800     1.0
10.4000     0.0
10.4200     0.0
10.4400     0.0
10.4600     0.0
10.4800     0.0
10.5000     1.0
10.5200     1.0
10.5400     1.0
10.5600     0.0
10.5800     0.0
10.6000     0.0
10.6200     0.0
10.6400     3.0
10.6600     2.0
10.6800     0.0
10.7000     0.0
10.7200     0.0
10.7400     0.0
10.7600     1.0
10.7800     1.0
10.8000     0.0
10.8200     0.0
10.8400     1.0
10.8600     1.0
10.8800     2.0
10.9000     0.0
10.9200     2.0
10.9400     1.0
10.9600     0.0
10.9800     1.0
11.0000     1.0
11.0200     1.0
11.0400     0.0
11.0600     1.0
11.0800     0.0
11.1000     0.0
11.1200     1.0
11.1400     0.0
11.1600     0.0
11.1800     0.0
11.2000     0.0
11.2200     1.0
11.2400     1.0
11.2600     1.0
11.2800     1.0
11.3000     0.0
11.3200     0.0
11.3400     0.0
11.3600     0.0
11.3800     1.0
11.4000     2.0
11.4200     2.0
11.4400     1.0
11.4600     1.0
11.4800     2.0
11.5000     1.0
11.5200     0.0
11.5400     0.0
11.5600     1.0
11.5800     0.0
11.6000     0.0
11.6200     0.0
11.6400     0.0
11.6600     1.0
11.6800     0.0
11.7000     0.0
11.7200     0.0
11.7400     0.0
11.7600     1.0
11.7800     0.0
11.8000     0.0
11.8200     1.0
11.8400     1.0
11.8600     0.0
11.8800     0.0
11.9000     0.0
11.9200     1.0
11.9400     0.0
11.9600     1.0
11.9800     1.0
12.0000     0.0
12.0200     0.0
12.0400     1.0
12.0600     1.0
12.0800     1.0
12.1000     0.0
12.1200     0.0
12.1400     0.0
12.1600     1.0
12.1800     0.0
12.2000     0.0
12.2200     1.0
12.2400     0.0
12.2600     2.0
12.2800     0.0
12.3000     1.0
12.3200     1.0
12.3400     1.0
12.3600     0.0
12.3800     0.0
12.4000     1.0
12.4200     0.0
12.4400     0.0
12.4600     0.0
12.4800     1.0
12.5000     0.0
12.5200     1.0
12.5400     0.0
12.5600     2.0
12.5800     2.0
12.6000     0.0
12.6200     1.0
12.6400     1.0
12.6600     0.0
12.6800     1.0
12.7000     0.0
12.7200     0.0
12.7400     0.0
12.7600     0.0
12.7800     0.0
12.8000     0.0
12.8200     1.0
12.8400     1.0
12.8600     1.0
12.8800     0.0
12.9000     0.0
12.9200     0.0
12.9400     0.0
12.9600     0.0
12.9800     1.0
13.0000     2.0
13.0200     0.0
13.0400     0.0
13.0600     0.0
13.0800     1.0
13.1000     1.0
13.1200     0.0
13.1400     1.0
13.1600     0.0
13.1800     1.0
13.2000     0.0
13.2200     0.0
13.2400     1.0
13.2600     1.0
13.2800     0.0
13.3000     0.0
13.3200     0.0
13.3400     1.0
13.3600     0.0
13.3800     1.0
13.4000     1.0
13.4200     0.0
13.4400     0.0
13.4600     0.0
13.4800     0.0
13.5000     0.0
13.5200     0.0
13.5400     0.0
13.5600     1.0
13.5800     0.0
13.6000     2.0
13.6200     0.0
13.6400     0.0
13.6600     0.0
13.6800     1.0
13.7000     0.0
13.7200     0.0
13.7400     0.0
13.7600     0.0
13.7800     2.0
13.8000     0.0
13.8200     0.0
13.8400     0.0
13.8600     0.0
13.8800     0.0
13.9000     0.0
13.9200     0.0
13.9400     0.0
13.9600     1.0
13.9800     0.0
14.0000     0.0
14.0200     1.0
14.0400     1.0
14.0600     0.0
14.0800     1.0
14.1000     2.0
14.1200     1.0
14.1400     0.0
14.1600     1.0
14.1800     0.0
14.2000     0.0
14.2200     0.0
14.2400     1.0
14.2600     0.0
14.2800     0.0
14.3000     0.0
14.3200     0.0
14.3400     1.0
14.3600     0.0
14.3800     0.0
14.4000     0.0
14.4200     0.0
14.4400     0.0
14.4600     0.0
14.4800     0.0
14.5000     0.0
14.5200     1.0
14.5400     0.0
14.5600     0.0
14.5800     0.0
14.6000     0.0
14.6200     1.0
14.6400     0.0
14.6600     0.0
14.6800     0.0
14.7000     0.0
14.7200     0.0
14.7400     0.0
14.7600     0.0
14.7800     0.0
14.8000     1.0
14.8200     1.0
14.8400     1.0
14.8600     0.0
14.8800     0.0
14.9000     0.0
14.9200     1.0
14.9400     0.0
14.9600     0.0
14.9800     1.0
15.0000     0.0
15.0200     0.0
15.0400     1.0
15.0600     1.0
15.0800     0.0
15.1000     1.0
15.1200     0.0
15.1400     1.0
15.1600     0.0
15.1800     0.0
15.2000     2.0
15.2200     1.0
15.2400     0.0
15.2600     0.0
15.2800     0.0
15.3000     0.0
15.3200     0.0
15.3400     0.0
15.3600     0.0
15.3800     0.0
15.4000     0.0
15.4200     0.0
15.4400     0.0
15.4600     0.0
15.4800     0.0
15.5000     0.0
15.5200     1.0
15.5400     1.0
15.5600     0.0
15.5800     0.0
15.6000     0.0
15.6200     0.0
15.6400     0.0
15.6600     0.0
15.6800     0.0
15.7000     0.0
15.7200     0.0
15.7400     0.0
15.7600     0.0
15.7800     0.0
15.8000     0.0
15.8200     0.0
15.8400     0.0
15.8600     0.0
15.8800     0.0
15.9000     0.0
15.9200     0.0
15.9400     1.0
15.9600     0.0
15.9800     0.0
16.0000     1.0
16.0200     1.0
16.0400     0.0
16.0600     0.0
16.0800     0.0
16.1000     1.0
16.1200     0.0
16.1400     2.0
16.1600     1.0
16.1800     0.0
16.2000     0.0
16.2200     1.0
16.2400     1.0
16.2600     1.0
16.2800     0.0
16.3000     1.0
16.3200     0.0
16.3400     0.0
16.3600     0.0
16.3800     0.0
16.4000     1.0
16.4200     0.0
16.4400     0.0
16.4600     0.0
16.4800     0.0
16.5000     0.0
16.5200     0.0
16.5400     0.0
16.5600     0.0
16.5800     0.0
16.6000     0.0
16.6200     1.0
16.6400     0.0
16.6600     1.0
16.6800     0.0
16.7000     0.0
16.7200     0.0
16.7400     1.0
16.7600     0.0
16.7800     0.0
16.8000     1.0
16.8200     0.0
16.8400     1.0
16.8600     1.0
16.8800     0.0
16.9000     0.0
16.9200     0.0
16.9400     1.0
16.9600     0.0
16.9800     0.0
17.0000     0.0
17.0200     1.0
17.0400     0.0
17.0600     1.0
17.0800     0.0
17.1000     0.0
17.1200     0.0
17.1400     0.0
17.1600     1.0
17.1800     1.0
17.2000     0.0
17.2200     1.0
17.2400     0.0
17.2600     1.0
17.2800     1.0
17.3000     0.0
17.3200     0.0
17.3400     0.0
17.3600     0.0
17.3800     0.0
17.4000     0.0
17.4200     0.0
17.4400     0.0
17.4600     0.0
17.4800     1.0
17.5000     0.0
17.5200     0.0
17.5400     0.0
17.5600     0.0
17.5800     0.0
17.6000     0.0
17.6200     0.0
17.6400     0.0
17.6600     0.0
17.6800     0.0
17.7000     0.0
17.7200     0.0
17.7400     0.0
17.7600     0.0
17.7800     1.0
17.8000     0.0
17.8200     0.0
17.8400     0.0
17.8600     0.0
17.8800     0.0
17.9000     0.0
17.9200     1.0
17.9400     0.0
17.9600     0.0
17.9800     0.0
18.0000     1.0
18.0200     0.0
18.0400     0.0
18.0600     0.0
18.0800     1.0
18.1000     0.0
18.1200     1.0
18.1400     0.0
18.1600     0.0
18.1800     0.0
18.2000     0.0
18.2200     0.0
18.2400     0.0
18.2600     0.0
18.2800     0.0
18.3000     0.0
18.3200     0.0
18.3400     0.0
18.3600     0.0
18.3800     0.0
18.4000     0.0
18.4200     0.0
18.4400     0.0
18.4600     0.0
18.4800     0.0
18.5000     0.0
18.5200     0.0
18.5400     0.0
18.5600     0.0
18.5800     0.0
18.6000     0.0
18.6200     0.0
18.6400     0.0
18.6600     0.0
18.6800     1.0
18.7000     0.0
18.7200     0.0
18.7400     0.0
18.7600     0.0
18.7800     0.0
18.8000     0.0
18.8200     1.0
18.8400     0.0
18.8600     0.0
18.8800     0.0
18.9000     2.0
18.9200     0.0
18.9400     0.0
18.9600     0.0
18.9800     0.0
19.0000     0.0
19.0200     0.0
19.0400     0.0
19.0600     0.0
19.0800     0.0
19.1000     0.0
19.1200     0.0
19.1400     0.0
19.1600     0.0
19.1800     0.0
19.2000     0.0
19.2200     0.0
19.2400     0.0
19.2600     0.0
19.2800     0.0
19.3000     0.0
19.3200     0.0
19.3400     0.0
19.3600     0.0
19.3800     1.0
19.4000     0.0
19.4200     0.0
19.4400     0.0
19.4600     0.0
19.4800     1.0
19.5000     0.0
19.5200     0.0
19.5400     0.0
19.5600     0.0
19.5800     0.0
19.6000     0.0
19.6200     1.0
19.6400     0.0
19.6600     0.0
19.6800     0.0
19.7000     0.0
19.7200     0.0
19.7400     0.0
19.7600     0.0
19.7800     0.0
19.8000     0.0
19.8200     0.0
19.8400     0.0
19.8600     0.0
19.8800     0.0
19.9000     0.0
19.9200     0.0
19.9400     0.0
19.9600     0.0
19.9800     0.0
20.0000     0.0
20.0200     0.0
20.0400     0.0
20.0600     1.0
20.0800     0.0
20.1000     0.0
20.1200     0.0
20.1400     1.0
20.1600     0.0
20.1800     1.0
20.2000     0.0
20.2200     0.0
20.2400     0.0
20.2600     1.0
20.2800     0.0
20.3000     1.0
20.3200     0.0
20.3400     0.0
20.3600     0.0
20.3800     0.0
20.4000     0.0
20.4200     0.0
20.4400     0.0
20.4600     0.0
20.4800     0.0
20.5000     0.0
20.5200     0.0
20.5400     0.0
20.5600     0.0
20.5800     0.0
20.6000     0.0
20.6200     0.0
20.6400     0.0
20.6600     0.0
20.6800     0.0
20.7000     1.0
20.7200     0.0
20.7400     0.0
20.7600     0.0
20.7800     0.0
20.8000     0.0
20.8200     0.0
20.8400     0.0
20.8600     0.0
20.8800     0.0
20.9000     0.0
20.9200     0.0
20.9400     0.0
20.9600     0.0
20.9800     0.0
21.0000     0.0
21.0200     0.0
21.0400     1.0
21.0600     0.0
21.0800     0.0
21.1000     0.0
21.1200     0.0
21.1400     0.0
21.1600     0.0
21.1800     0.0
21.2000     0.0
21.2200     0.0
21.2400     0.0
21.2600     0.0
21.2800     0.0
21.3000     0.0
21.3200     0.0
21.3400     0.0
21.3600     0.0
21.3800     0.0
21.4000     0.0
21.4200     0.0
21.4400     0.0
21.4600     1.0
21.4800     0.0
21.5000     0.0
21.5200     1.0
21.5400     0.0
21.5600     0.0
21.5800     0.0
21.6000     1.0
21.6200     0.0
21.6400     0.0
21.6600     0.0
21.6800     0.0
21.7000     0.0
21.7200     0.0
21.7400     0.0
21.7600     0.0
21.7800     0.0
21.8000     0.0
21.8200     0.0
21.8400     0.0
21.8600     0.0
21.8800     0.0
21.9000     0.0
21.9200     1.0
21.9400     0.0
21.9600     0.0
21.9800     0.0
22.0000     0.0
22.0200     0.0
22.0400     1.0
22.0600     0.0
22.0800     0.0
22.1000     0.0
22.1200     0.0
22.1400     0.0
22.1600     0.0
22.1800     0.0
22.2000     0.0
22.2200     0.0
22.2400     0.0
22.2600     0.0
22.2800     0.0
22.3000     0.0
22.3200     0.0
22.3400     0.0
22.3600     0.0
22.3800     0.0
22.4000     0.0
22.4200     0.0
22.4400     0.0
22.4600     0.0
22.4800     0.0
22.5000     0.0
22.5200     0.0
22.5400     1.0
22.5600     0.0
22.5800     0.0
22.6000     0.0
22.6200     0.0
22.6400     0.0
22.6600     0.0
22.6800     0.0
22.7000     0.0
22.7200     0.0
22.7400     0.0
22.7600     0.0
22.7800     1.0
22.8000     1.0
22.8200     0.0
22.8400     0.0
22.8600     0.0
22.8800     0.0
22.9000     0.0
22.9200     0.0
22.9400     0.0
22.9600     0.0
22.9800     0.0
23.0000     0.0
23.0200     0.0
23.0400     0.0
23.0600     0.0
23.0800     0.0
23.1000     0.0
23.1200     1.0
23.1400     0.0
23.1600     0.0
23.1800     0.0
23.2000     0.0
23.2200     0.0
23.2400     0.0
23.2600     0.0
23.2800     0.0
23.3000     0.0
23.3200     0.0
23.3400     0.0
23.3600     0.0
23.3800     0.0
23.4000     0.0
23.4200     0.0
23.4400     0.0
23.4600     0.0
23.4800     0.0
23.5000     0.0
23.5200     0.0
23.5400     0.0
23.5600     0.0
23.5800     0.0
23.6000     0.0
23.6200     0.0
23.6400     0.0
23.6600     0.0
23.6800     0.0
23.7000     0.0
23.7200     0.0
23.7400     0.0
23.7600     1.0
23.7800     0.0
23.8000     0.0
23.8200     0.0
23.8400     0.0
23.8600     0.0
23.8800     0.0
23.9000     0.0
23.9200     0.0
23.9400     0.0
23.9600     0.0
23.9800     0.0
24.0000     0.0
24.0200     0.0
24.0400     1.0
24.0600     0.0
24.0800     0.0
24.1000     0.0
24.1200     0.0
24.1400     0.0
24.1600     0.0
24.1800     0.0
24.2000     0.0
24.2200     0.0
24.2400     0.0
24.2600     1.0
24.2800     0.0
24.3000     0.0
24.3200     1.0
24.3400     0.0
24.3600     0.0
24.3800     0.0
24.4000     0.0
24.4200     0.0
24.4400     0.0
24.4600     0.0
24.4800     0.0
24.5000     0.0
24.5200     0.0
24.5400     0.0
24.5600     0.0
24.5800     0.0
24.6000     0.0
24.6200     0.0
24.6400     0.0
24.6600     0.0
24.6800     0.0
24.7000     0.0
24.7200     0.0
24.7400     0.0
24.7600     0.0
24.7800     0.0
24.8000     0.0
24.8200     0.0
24.8400     0.0
24.8600     0.0
24.8800     0.0
24.9000     0.0
24.9200     0.0
24.9400     0.0
24.9600     0.0
24.9800     0.0
25.0000     0.0
25.0200     0.0
25.0400     0.0
25.0600     0.0
25.0800     0.0
25.1000     0.0
25.1200     0.0
25.1400     0.0
25.1600     0.0
25.1800     0.0
25.2000     0.0
25.2200     0.0
25.2400     0.0
25.2600     0.0
25.2800     0.0
25.3000     0.0
25.3200     0.0
25.3400     0.0
25.3600     0.0
25.3800     0.0
25.4000     0.0
25.4200     0.0
25.4400     0.0
25.4600     0.0
25.4800     0.0
25.5000     0.0
25.5200     0.0
25.5400     0.0
25.5600     0.0
25.5800     0.0
25.5900     0.0
#ENDOFDATA   :